## Type: filter
## Name: 823/100 Ziva Cy7 10-10875
## downloaded from https://lumencor.com/products/accessories/dichroic-mirrors-and-filters
wavelength,transmission
723.0,0.015046
723.5,0.0164395
724.0,0.017083
724.5,0.0122575
725.0,0.011867
725.5,0.008053
726.0,0.014184
726.5,0.0160825
727.0,0.008974
727.5,0.01861
728.0,0.015854
728.5,0.0071935
729.0,0.010053
729.5,0.0128445
730.0,0.023266
730.5,0.016151
731.0,0.012172
731.5,0.018799
732.0,0.010432
732.5,0.02037
733.0,0.016548
733.5,0.002052
734.0,0.007857
734.5,-0.0006095
735.0,0.00975
735.5,0.0200805
736.0,0.019209
736.5,0.01833
737.0,0.010779
737.5,0.0077745
738.0,0.010464
738.5,0.0053015
739.0,0.001068
739.5,0.0084465
740.0,0.01029
740.5,0.024783
741.0,0.021526
741.5,0.01725
742.0,0.027798
742.5,0.0100385
743.0,0.006446
743.5,0.009477
744.0,0.010956
744.5,0.0108135
745.0,0.011248
745.5,0.018851
746.0,0.038525
746.5,0.0232985
747.0,0.018499
747.5,0.006497
748.0,0.007036
748.5,0.004942
749.0,0.013051
749.5,0.016193
750.0,0.008292
750.5,0.012495
751.0,0.026183
751.5,0.0235315
752.0,0.011586
752.5,0.00846
753.0,0.000653
753.5,0.0099855
754.0,0.016132
754.5,0.022367
755.0,0.012093
755.5,0
756.0,0.010646
756.5,0.0117285
757.0,0.025155
757.5,0.002341
758.0,0.017771
758.5,0.0125645
759.0,0.016225
759.5,0.020927
760.0,0.01465
760.5,0.0023115
761.0,0.020551
761.5,0.0106865
762.0,0.010617
762.5,0.016346
763.0,0.022232
763.5,0.0284315
764.0,0.017763
764.5,0.028339
765.0,0.014523
765.5,0.01363
766.0,0.015792
766.5,0.0042565
767.0,0.002398
767.5,0.0144015
768.0,0.014079
768.5,0.0214165
769.0,0.004734
769.5,0.0102965
770.0,0.011786
770.5,0.028281
771.0,0.05163
771.5,0.0660475
772.0,0.116989
772.5,0.220594
773.0,0.446781
773.5,1.141062
774.0,2.965018
774.5,8.460048
775.0,23.34684
775.5,53.8081
776.0,85.39885
776.5,97.27297
777.0,97.98523
777.5,97.7067
778.0,98.20869
778.5,97.96185
779.0,98.25779
779.5,98.82584
780.0,99.14519
780.5,98.587925
781.0,98.25938
781.5,97.15784
782.0,96.92799
782.5,96.8381
783.0,97.04044
783.5,97.752315
784.0,97.95076
784.5,98.59577
785.0,99.20498
785.5,99.685155
786.0,99.57806
786.5,98.460015
787.0,98.52193
787.5,97.400245
788.0,97.17099
788.5,97.262595
789.0,97.18888
789.5,97.63115
790.0,97.95396
790.5,98.22803
791.0,98.81897
791.5,99.40964
792.0,99.41467
792.5,99.175465
793.0,98.74572
793.5,98.85934
794.0,98.01858
794.5,98.27866
795.0,98.32474
795.5,98.259065
796.0,98.44157
796.5,98.55062
797.0,98.79519
797.5,98.86842
798.0,99.3083
798.5,99.022785
799.0,98.94099
799.5,99.54224
800.0,99.38351
800.5,99.27501
801.0,99.15503
801.5,99.077475
802.0,99.00508
802.5,98.96128
803.0,98.92233
803.5,98.89085
804.0,98.89273
804.5,98.89638
805.0,98.9166
805.5,98.97066
806.0,98.98732
806.5,99.032415
807.0,99.04996
807.5,99.128275
808.0,99.172
808.5,99.22587
809.0,99.25973
809.5,99.29351
810.0,99.32356
810.5,99.32723
811.0,99.27629
811.5,99.23351
812.0,99.14766
812.5,99.05504
813.0,98.97889
813.5,98.9113
814.0,98.86306
814.5,98.818415
815.0,98.80122
815.5,98.842875
816.0,98.86893
816.5,98.96738
817.0,99.04324
817.5,99.11999
818.0,99.202
818.5,99.207955
819.0,99.24433
819.5,99.250815
820.0,99.2448
820.5,99.180505
821.0,99.13713
821.5,99.049525
822.0,98.99619
822.5,98.958415
823.0,98.93759
823.5,98.930825
824.0,98.96857
824.5,99.00493
825.0,99.07713
825.5,99.136075
826.0,99.19532
826.5,99.23518
827.0,99.24707
827.5,99.269455
828.0,99.24469
828.5,99.15496
829.0,99.08331
829.5,98.99319
830.0,98.92314
830.5,98.83602
831.0,98.83029
831.5,98.773295
832.0,98.727
832.5,98.729095
833.0,98.73842
833.5,98.7754
834.0,98.84124
834.5,98.913035
835.0,98.94987
835.5,99.017135
836.0,99.05746
836.5,99.079
837.0,99.07746
837.5,99.10207
838.0,99.04272
838.5,98.996205
839.0,98.92849
839.5,98.857985
840.0,98.76683
840.5,98.746585
841.0,98.73193
841.5,98.699455
842.0,98.7228
842.5,98.745715
843.0,98.80457
843.5,98.885415
844.0,98.99113
844.5,99.113715
845.0,99.21315
845.5,99.36582
846.0,99.44929
846.5,99.49646
847.0,99.44498
847.5,99.32167
848.0,99.18691
848.5,98.98996
849.0,98.78462
849.5,98.62084
850.0,98.46804
850.5,98.32976
851.0,98.23711
851.5,98.20882
852.0,98.17779
852.5,98.172885
853.0,98.22648
853.5,98.37862
854.0,98.53349
854.5,98.74192
855.0,98.91798
855.5,99.090765
856.0,99.21216
856.5,99.188125
857.0,99.06529
857.5,98.870755
858.0,98.62068
858.5,98.374485
859.0,98.15442
859.5,98.00783
860.0,97.9516
860.5,97.88939
861.0,97.86832
861.5,97.9443
862.0,98.14349
862.5,98.411945
863.0,98.66079
863.5,98.88268
864.0,98.96195
864.5,98.858605
865.0,98.79335
865.5,98.694905
866.0,98.68259
866.5,98.60376
867.0,98.55899
867.5,97.706145
868.0,97.17249
868.5,96.062875
869.0,94.14351
869.5,91.85878
870.0,91.01444
870.5,91.77179
871.0,93.49829
871.5,93.8879
872.0,76.11068
872.5,41.88747
873.0,17.14438
873.5,6.767743
874.0,2.735867
874.5,1.2338075
875.0,0.560019
875.5,0.275106
876.0,0.138842
876.5,0.0727455
877.0,0.041351
877.5,0.0139465
878.0,0.006643
878.5,0.010475
879.0,-0.00174
879.5,0.0034945
880.0,-0.00185
880.5,-0.00378
881.0,-0.01429
881.5,0.001308
882.0,-0.01349
882.5,-0.0007675
883.0,0.006995
883.5,0.003164
884.0,0.001966
884.5,0.00073
885.0,0.001416
885.5,-0.002475
886.0,0.004106
886.5,-0.00639
887.0,-0.00824
887.5,0.008117
888.0,0.003637
888.5,-0.00184
889.0,-0.00629
889.5,-0.0034265
890.0,-0.00169
890.5,-0.004925
891.0,-0.01796
891.5,-0.000493
892.0,-0.01266
892.5,-0.0035
893.0,0.006829
893.5,0.003778
894.0,0.001049
894.5,-0.00957
895.0,0.00334
895.5,-0.002915
896.0,-0.02001
896.5,-0.00425
897.0,-0.00882
897.5,0.003443
898.0,-0.00256
898.5,-0.004745
899.0,0.000992
899.5,-0.01219
900.0,0.008726
900.5,0.0065565
901.0,-0.01164
901.5,-0.0024
902.0,-0.01571
902.5,0.0092535
903.0,-0.00597
903.5,0.0015395
904.0,-0.00376
904.5,-0.0051
905.0,0.000213
905.5,0.0041345
906.0,-0.00283
906.5,0.0030885
907.0,-0.00823
907.5,-0.00348
908.0,-0.00746
908.5,-0.002255
909.0,0.001342
909.5,-0.000438
910.0,0.007026
910.5,0.000732
911.0,0.015648
911.5,-0.005241
912.0,-0.0064
912.5,-0.001159
913.0,0.007088
913.5,-0.009095
914.0,0.004934
914.5,0.0042185
915.0,0.009317
915.5,-0.0027735
916.0,-0.01041
916.5,0.003295
917.0,0.001136
917.5,-0.00554
918.0,-0.00071
918.5,-0.00856
919.0,-7.98E-05
919.5,0.008997
920.0,-0.00956
920.5,0.00558655
921.0,-0.00095
921.5,0.0046825
922.0,0.002586
922.5,0.001999
923.0,-0.00553